<Bundle xmlns="http://hl7.org/fhir">
<!--     BOOKREQRESP01  git commit 1458db7    -->
  <id value="__MESSAGEID__" />
  <meta>
    <lastUpdated value="__TIMESTAMP__" />
    <profile value="https://fhir.hl7.org.uk/StructureDefinition/UKCore-Bundle" />
  </meta>
  <type value="searchset" />
  <total value="2" />
  <timestamp value="__TIMESTAMP__" />
  <link>
    <relation value="self" />
    <url value="https://__HOST____FULL_CONTEXT_PATH__" />
  </link>
  <entry>
    <fullUrl value="https://directory.spineservices.nhs.uk/Slot/da83ae28-46f0-4aad-9c54-dcad462cafcb" />
    <resource>
      <Slot>
        <id value="da83ae28-46f0-4aad-9c54-dcad462cafcb" />
        <meta>
          <lastUpdated value="__YESTERDAY__T15:01:30+00:00" />
          <profile value="http://hl7.org/fhir/StructureDefinition/Slot" />
        </meta>
        <serviceCategory>
          <coding>
            <code value="14" />
            <display value="Emergency Department" />
          </coding>
        </serviceCategory>
        <appointmentType>
          <coding>
            <code value="EMERGENCY" />
            <display value="Emergency appointment" />
          </coding>
        </appointmentType>
        <schedule>
          <reference value="Schedule/7e8c4baa-b7a7-4a7c-bb8c-8c8426ad7781" />
        </schedule>
        <status value="free" />
        <start value="__TOMORROW__T10:00:00.000+00:00" />
        <end value="__TOMORROW__T10:15:00.000+00:00" />
      </Slot>
    </resource>
  </entry>
  <entry>
    <fullUrl value="https://directory.spineservices.nhs.uk/Slot/c413ac51-df9b-45be-b413-d7548406a4fb" />
    <resource>
      <Slot>
        <id value="c413ac51-df9b-45be-b413-d7548406a4fb" />
        <meta>
          <lastUpdated value="__YESTERDAY__T15:01:30+00:00" />
          <profile value="http://hl7.org/fhir/StructureDefinition/Slot" />
        </meta>
        <serviceCategory>
          <coding>
            <code value="14" />
            <display value="Emergency Department" />
          </coding>
        </serviceCategory>
        <appointmentType>
          <coding>
            <code value="EMERGENCY" />
            <display value="Emergency appointment" />
          </coding>
        </appointmentType>
        <schedule>
          <reference value="Schedule/7e8c4baa-b7a7-4a7c-bb8c-8c8426ad7781" />
        </schedule>
        <status value="free" />
        <start value="__TOMORROW__T10:15:00.000+00:00" />
        <end value="__TOMORROW__T10:30:00.000+00:00" />
      </Slot>
    </resource>
  </entry>
  <entry>
    <fullUrl value="https://directory.spineservices.nhs.uk/Schedule/7e8c4baa-b7a7-4a7c-bb8c-8c8426ad7781" />
    <resource>
      <Schedule>
        <id value="7e8c4baa-b7a7-4a7c-bb8c-8c8426ad7781" />
        <meta>
          <lastUpdated value="__YESTERDAY__T15:01:30+00:00" />
          <profile value="http://hl7.org/fhir/StructureDefinition/Schedule" />
        </meta>
        <identifier>
          <system value="https://system.supplier.co.uk/Diary/id" />
          <value value="8622dfdb-dc6a-47b6-b3a7-2eb2829db287" />
        </identifier>
        <actor>
          <!--  HealthcareService  -->
          <reference value="HealthcareService/5088769a-491e-463f-a167-fff78bb472d9" />
        </actor>
        <actor>
          <!--  PractitionerRole  -->
          <reference value="PractitionerRole/6bea99e7-b97f-4ee1-980d-05f997afff4f" />
        </actor>
        <actor>
          <!--  Practitioner  -->
          <reference value="Practitioner/cad5a61c-3797-4f26-8921-ae4bc7f75eb6" />
        </actor>
      </Schedule>
    </resource>
  </entry>
  <entry>
    <fullUrl value="https://directory.spineservices.nhs.uk/HealthcareService/5088769a-491e-463f-a167-fff78bb472d9" />
    <resource>
      <HealthcareService>
        <id value="5088769a-491e-463f-a167-fff78bb472d9" />
        <meta>
          <lastUpdated value="__YESTERDAY__T15:01:30+00:00" />
          <profile value="http://hl7.org/fhir/StructureDefinition/HealthcareService" />
        </meta>
        <identifier>
          <system value="https://system.supplier.co.uk/My/Healthcare/Services" />
          <value value="100" />
        </identifier>
        <location>
          <reference value="Location/d23eac9a-12e7-46c5-8781-c3c1d9b1d3c5" />
        </location>
        <name value="Healthcare Service Name" />
      </HealthcareService>
    </resource>
  </entry>
</Bundle>
