<Bundle xmlns="http://hl7.org/fhir">
<!--     BOOKREQRESP01  git commit 1458db7    -->
  <id value="__MESSAGEID__" />
  <meta>
    <lastUpdated value="__TIMESTAMP__" />
    <profile value="https://fhir.hl7.org.uk/StructureDefinition/UKCore-Bundle" />
  </meta>
  <type value="searchset" />
  <total value="5" />
  <timestamp value="__TIMESTAMP__" />
  <link>
    <relation value="self" />
    <url value="https://__HOST____FULL_CONTEXT_PATH__" />
  </link>
  <entry>
    <fullUrl value="https://directory.spineservices.nhs.uk/Slot/da83ae28-46f0-4aad-9c54-dcad462cafcb" />
    <resource>
      <Slot>
        <id value="da83ae28-46f0-4aad-9c54-dcad462cafcb" />
        <meta>
          <lastUpdated value="__YESTERDAY__T15:01:30+00:00" />
          <profile value="http://hl7.org/fhir/StructureDefinition/Slot" />
        </meta>
        <serviceCategory>
          <coding>
            <code value="14" />
            <display value="Emergency Department" />
          </coding>
        </serviceCategory>
        <appointmentType>
          <coding>
            <code value="EMERGENCY" />
            <display value="Emergency appointment" />
          </coding>
        </appointmentType>
        <schedule>
          <reference value="Schedule/sched1111" />
        </schedule>
        <status value="free" />
        <start value="__TOMORROW__T10:00:00.000+00:00" />
        <end value="__TOMORROW__T10:15:00.000+00:00" />
      </Slot>
    </resource>
  </entry>
  <entry>
    <fullUrl value="https://directory.spineservices.nhs.uk/Slot/c413ac51-df9b-45be-b413-d7548406a4fb" />
    <resource>
      <Slot>
        <id value="c413ac51-df9b-45be-b413-d7548406a4fb" />
        <meta>
          <lastUpdated value="__YESTERDAY__T15:01:30+00:00" />
          <profile value="http://hl7.org/fhir/StructureDefinition/Slot" />
        </meta>
        <serviceCategory>
          <coding>
            <code value="14" />
            <display value="Emergency Department" />
          </coding>
        </serviceCategory>
        <appointmentType>
          <coding>
            <code value="EMERGENCY" />
            <display value="Emergency appointment" />
          </coding>
        </appointmentType>
        <schedule>
          <reference value="Schedule/sched1111" />
        </schedule>
        <status value="free" />
        <start value="__TOMORROW__T10:15:00.000+00:00" />
        <end value="__TOMORROW__T10:30:00.000+00:00" />
      </Slot>
    </resource>
  </entry>
  <entry>
    <fullUrl value="https://directory.spineservices.nhs.uk/Slot/52af19ea-8612-4dff-a0e9-575f46c02aac" />
    <resource>
      <Slot>
        <id value="52af19ea-8612-4dff-a0e9-575f46c02aac" />
        <meta>
          <lastUpdated value="__YESTERDAY__T15:01:30+00:00" />
          <profile value="http://hl7.org/fhir/StructureDefinition/Slot" />
        </meta>
        <serviceCategory>
          <coding>
            <code value="14" />
            <display value="Emergency Department" />
          </coding>
        </serviceCategory>
        <appointmentType>
          <coding>
            <code value="EMERGENCY" />
            <display value="Emergency appointment" />
          </coding>
        </appointmentType>
        <schedule>
          <reference value="Schedule/sched1111" />
        </schedule>
        <status value="busy" />
        <start value="__TOMORROW__T10:30:00.000+00:00" />
        <end value="__TOMORROW__T10:45:00.000+00:00" />
      </Slot>
    </resource>
  </entry>
  <entry>
    <fullUrl value="https://directory.spineservices.nhs.uk/Slot/3f5dd95a-68a5-44ec-a234-3b28a24dad33" />
    <resource>
      <Slot>
        <id value="3f5dd95a-68a5-44ec-a234-3b28a24dad33" />
        <meta>
          <lastUpdated value="__YESTERDAY__T15:01:30+00:00" />
          <profile value="http://hl7.org/fhir/StructureDefinition/Slot" />
        </meta>
        <serviceCategory>
          <coding>
            <code value="14" />
            <display value="Emergency Department" />
          </coding>
        </serviceCategory>
        <appointmentType>
          <coding>
            <code value="EMERGENCY" />
            <display value="Emergency appointment" />
          </coding>
        </appointmentType>
        <schedule>
          <reference value="Schedule/sched1111" />
        </schedule>
        <status value="free" />
        <start value="__TOMORROW__T10:45:00.000+00:00" />
        <end value="__TOMORROW__T11:00:00.000+00:00" />
      </Slot>
    </resource>
  </entry>
  <entry>
    <fullUrl value="https://directory.spineservices.nhs.uk/Slot/9c0c7b40-db06-4dcb-b611-31333ea7d91a" />
    <resource>
      <Slot>
        <id value="9c0c7b40-db06-4dcb-b611-31333ea7d91a" />
        <meta>
          <lastUpdated value="__YESTERDAY__T15:01:30+00:00" />
          <profile value="http://hl7.org/fhir/StructureDefinition/Slot" />
        </meta>
        <serviceCategory>
          <coding>
            <code value="14" />
            <display value="Emergency Department" />
          </coding>
        </serviceCategory>
        <appointmentType>
          <coding>
            <code value="EMERGENCY" />
            <display value="Emergency appointment" />
          </coding>
        </appointmentType>
        <schedule>
          <reference value="Schedule/sched1111" />
        </schedule>
        <status value="busy" />
        <start value="__TOMORROW__T11:00:00.000+00:00" />
        <end value="__TOMORROW__T11:15:00.000+00:00" />
        />
      </Slot>
    </resource>
  </entry>
  <entry>
    <fullUrl value="https://directory.spineservices.nhs.uk/Schedule/sched1111" />
    <resource>
      <Schedule>
        <id value="sched1111" />
        <meta>
          <lastUpdated value="__YESTERDAY__T15:01:30+00:00" />
          <profile value="http://hl7.org/fhir/StructureDefinition/Schedule" />
        </meta>
        <identifier>
          <system value="https://system.supplier.co.uk/Diary/id" />
          <value value="8622dfdb-dc6a-47b6-b3a7-2eb2829db287" />
        </identifier>
        <actor>
          <!--  HealthcareService  -->
          <reference value="HealthcareService/918999198999" />
        </actor>
        <actor>
          <!--  PractitionerRole  -->
          <reference value="PractitionerRole/R0260" />
        </actor>
        <actor>
          <!--  Practitioner  -->
          <reference value="Practitioner/ABCD123456" />
        </actor>
      </Schedule>
    </resource>
  </entry>
  <entry>
    <fullUrl value="https://directory.spineservices.nhs.uk/HealthcareService/918999198999" />
    <resource>
      <HealthcareService>
        <meta>
          <lastUpdated value="__YESTERDAY__T15:01:30+00:00" />
          <profile value="http://hl7.org/fhir/StructureDefinition/HealthcareService" />
        </meta>
        <identifier>
          <system value="https://system.supplier.co.uk/My/Healthcare/Services" />
          <value value="100" />
        </identifier>
        <location>
          <reference value="Location/loc1111" />
        </location>
        <name value="Healthcare Service Name" />
      </HealthcareService>
    </resource>
  </entry>
  <entry>
    <fullUrl value="https://directory.spineservices.nhs.uk/Practitioner/ABCD123456" />
    <resource>
      <Practitioner>
        <id value="ABCD123456" />
        <meta>
          <lastUpdated value="__YESTERDAY__T15:01:30+00:00" />
          <profile value="https://fhir.hl7.org.uk/StructureDefinition/UKCore-Practitioner" />
        </meta>
        <identifier>
          <system value="https://fhir.nhs.uk/Id/sds-user-id" />
          <value value="ABCD123456" />
        </identifier>
        <identifier>
          <system value="https://fhir.nhs.uk/Id/sds-role-profile-id" />
          <value value="R0260" />
        </identifier>
        <name>
          <family value="Bloggs" />
          <given value="Joe" />
          <prefix value="Dr" />
        </name>
      </Practitioner>
    </resource>
  </entry>
  <entry>
    <fullUrl value="https://directory.spineservices.nhs.uk/PractitionerRole/R0260" />
    <resource>
      <PractitionerRole>
        <id value="R0260" />
        <meta>
          <lastUpdated value="__YESTERDAY__T15:01:30+00:00" />
          <profile value="https://fhir.hl7.org.uk/StructureDefinition/UKCore-PractitionerRole" />
        </meta>
        <practitioner>
          <reference value="Practitioner/ABCD123456" />
        </practitioner>
        <code>
          <coding>
            <system value="https://fhir.hl7.org.uk/ValueSet/UKCore-PractitionerRoleCode" />
            <version value="4.0.1" />
            <code value="doctor" />
            <display value="Doctor" />
          </coding>
        </code>
      </PractitionerRole>
    </resource>
  </entry>
  <entry>
    <fullUrl value="https://directory.spineservices.nhs.uk/Location/loc1111" />
    <resource>
      <Location>
        <id value="loc1111" />
        <meta>
          <lastUpdated value="__YESTERDAY__T15:01:30+00:00" />
          <profile value="https://fhir.hl7.org.uk/StructureDefinition/UKCore-Location" />
        </meta>
        <name value="Healthcare Service Location" />
        <position>
          <longitude value="143.20196" />
          <latitude value="-37.22866" />
        </position>
      </Location>
    </resource>
  </entry>
</Bundle>
