<Bundle xmlns="http://hl7.org/fhir">
   <id value="79120f41-a431-4f08-bcc5-1e67006fcae0"/>
   <meta>
      <lastUpdated value="2021-10-11T15:23:30+00:00"/>
      <profile value="https://fhir.nhs.uk/StructureDefinition/BARSUKCoreBundle"/>
   </meta>
   <type value="message"/>
   <timestamp value="2021-10-11T12:15:10+00:00"/>
   <entry>
      <fullUrl value="urn:uuid:1cbdfb97-5859-48a4-8301-d54eab818d68"/>
      <resource>
         <MessageHeader xmlns="http://hl7.org/fhir">
            <meta>
               <profile value="https://fhir.nhs.uk/StructureDefinition/BARSUKCoreMessageHeader"/>
            </meta>
            <eventCoding>
               <system value="https://fhir.nhs.uk/CodeSystem/message-event"/>
               <code value="booking-request"/>
            </eventCoding>
            <destination>
               <receiver>
                  <reference value="urn:uuid:10397afd-479c-42ea-9d5d-e4024481e0f8"/>
               </receiver>
            </destination>
            <sender>
               <reference value="urn:uuid:07939a0c-2854-46ff-9282-ad906bc93679"/>
            </sender>
            <source>
               <name value="Emergency service"/>
               <software value="Anon Patient Manager"/>
               <version value="2.1.45"/>
               <contact>
                  <system value="phone"/>
                  <value value="+44 (0113) 123 4567"/>
               </contact>
               <endpoint value="13p:54.77.23.13:0494"/>
            </source>
            <reason>
               <coding>
                  <system value="https://fhir.nhs.uk/CodeSystem/message-reasons"/>
                  <code value="new"/>
               </coding>
            </reason>
            <focus>
               <reference value="urn:uuid:236bb75d-90ef-461f-b71e-fde7f899802c"/>
            </focus>
         </MessageHeader>
      </resource>
   </entry>
   <entry>
      <fullUrl value="urn:uuid:236bb75d-90ef-461f-b71e-fde7f899802c"/>
      <resource>
		<Appointment xmlns="http://hl7.org/fhir">
		   <meta>
			  <profile value="https://fhir.hl7.org.uk/STU3/StructureDefinition/CareConnect-Appointment-1"></profile>
		   </meta>
		   <contained>
			  <DocumentReference xmlns="http://hl7.org/fhir">
				 <id value="123"></id>
				 <meta>
					<profile value="https://fhir.hl7.org.uk/STU3/StructureDefinition/CareConnect-DocumentReference-1"></profile>
				 </meta>
				 <identifier>
					<system value="https://tools.ietf.org/html/rfc4122"></system>
					<value value="6b9c59dd-675b-4026-98db-f608ef501e6e"></value>
				 </identifier>
				 <status value="current"></status>
				 <type>
					<coding>
					   <system value="urn:oid:2.16.840.1.113883.2.1.3.2.4.18.17"></system>
					   <code value="POCD_MT200001GB02"></code>
					   <display value="Integrated Urgent Care Report"></display>
					</coding>
				 </type>
				 <!-- R4 parser does not like this -->
				 <indexed value="2018-12-20T09:43:41+11:00"></indexed>
				 <content>
					<attachment>
					   <contentType value="application/hl7-v3+xml"></contentType>
					   <language value="en"></language>
					</attachment>
				 </content>
			  </DocumentReference>
		   </contained>
		   <contained>
			  <Slot xmlns="http://hl7.org/fhir">
				 <id value="__SLOT_ID____APPT_SLOT_ID__"></id>
				 <meta>
					<profile value="https://fhir.hl7.org.uk/STU3/StructureDefinition/CareConnect-Slot-1"></profile>
				 </meta>
				 <identifier>
					<system value="__IDENTIFIER_SYSTEM____APPT_IDENTIFIER_SYSTEM__"></system>
					<value value="__IDENTIFIER_VALUE____APPT_IDENTIFIER_VALUE__"></value>
				 </identifier>
				 <schedule>
					<reference value="Schedule/__SCHEDULE____APPT_SCHEDULE__"></reference>
				 </schedule>
				 <status value="busy"></status>
				 <start value="__START_DATE____APPT_START_DATE__"></start>
				 <end value="__END_DATE____APPT_END_DATE__"></end>
			  </Slot>
		   </contained>
		   <contained>
			  <Patient xmlns="http://hl7.org/fhir">
				 <id value="P1"></id>
				 <meta>
					<profile value="https://fhir.hl7.org.uk/STU3/StructureDefinition/CareConnect-Patient-1"></profile>
				 </meta>
				 <identifier>
					<extension url="https://fhir.hl7.org.uk/STU3/StructureDefinition/Extension-CareConnect-NHSNumberVerificationStatus-1">
					   <valueCodeableConcept>
						  <coding>
							 <system value="https://fhir.hl7.org.uk/STU3/CodeSystem/CareConnect-NHSNumberVerificationStatus-1"></system>
							 <code value="01"></code>
							 <display value="Number present and verified"></display>
						  </coding>
					   </valueCodeableConcept>
					</extension>
					<use value="official"></use>
					<system value="https://fhir.nhs.uk/Id/nhs-number"></system>
					<value value="1234554321"></value>
				 </identifier>
				 <name>
					<use value="official"></use>
					<family value="Chalmers"></family>
					<given value="Peter"></given>
					<prefix value="Mr"></prefix>
				 </name>
				 <telecom>
					<system value="phone"></system>
					<value value="01234 567 890"></value>
					<use value="home"></use>
					<rank value="1"></rank>
				 </telecom>
				 <gender value="male"></gender>
				 <birthDate value="1974-12-25"></birthDate>
				 <address>
					<use value="home"></use>
					<text value="123 High Street, Leeds LS1 4HR"></text>
					<line value="123 High Street"></line>
					<line value="Leeds"></line>
					<city value="Leeds"></city>
					<postalCode value="LS1 4HR"></postalCode>
				</address>
			   <contact>
				  <relationship>
					 <coding>
						<system value="http://hl7.org/fhir/v2/0131"></system>
						<code value="N"></code>
						<display value="Next-of-Kin"></display>
					 </coding>
				  </relationship>
				  <name>
					 <use value="official"></use>
					 <family value="Smith"></family>
					 <given value="Mary"></given>
					 <prefix value="Mrs"></prefix>
				  </name>
				  <telecom>
					 <system value="phone"></system>
					 <value value="01234 588 187"></value>
					 <use value="home"></use>
					 <rank value="2"></rank>
				  </telecom>
		   </contact>
			  </Patient>
		   </contained>
		   <status value="booked"></status>
		   <description value="Reason for calling"></description>
		   <supportingInformation>
			  <reference value="#123"></reference>
		   </supportingInformation>
		   <start value="__START_DATE____APPT_START_DATE__"></start>
		   <end value="__END_DATE____APPT_END_DATE__"></end>
		   <slot>
			  <reference value="#__SLOT_ID____APPT_SLOT_ID__"></reference>
		   </slot>
		   <created value="__APPT_CREATED__"></created>
		   <participant>
			  <actor>
				 <reference value="#P1"></reference>
				 <identifier>
					<use value="official"></use>
					<system value="https://fhir.nhs.uk/Id/nhs-number"></system>
					<value value="1234554321"></value>
				 </identifier>
				 <display value="Peter James Chalmers"></display>
			  </actor>
			  <status value="accepted"></status>
		  </participant>
		  <id value="__APPT_ID__"/>
		  <language value="en-GB"></language>
		</Appointment>
      </resource>
   </entry>
</Bundle>
