<Bundle xmlns="http://hl7.org/fhir">
	<id value="79120f41-a431-4f08-bcc5-1e67006fcae0"/>
	<meta>
		<lastUpdated value="2021-10-11T15:23:30+00:00"/>
		<profile value="https://fhir.nhs.uk/StructureDefinition/BARSUKCoreBundle"/>
	</meta>
	<type value="message"/>
	<timestamp value="2021-10-11T12:15:10+00:00"/>
	<entry>
		<fullUrl value="urn:uuid:1cbdfb97-5859-48a4-8301-d54eab818d68"/>
		<resource>
			<MessageHeader>
				<meta>
					<profile value="https://fhir.nhs.uk/StructureDefinition/BARSUKCoreMessageHeader"/>
				</meta>
				<eventCoding>
					<system value="https://fhir.nhs.uk/CodeSystem/message-event"/>
					<code value="booking-request"/>
				</eventCoding>
				<destination>
					<receiver>
						<reference value="urn:uuid:10397afd-479c-42ea-9d5d-e4024481e0f8"/>
					</receiver>
				</destination>
				<sender>
					<reference value="urn:uuid:07939a0c-2854-46ff-9282-ad906bc93679"/>
				</sender>
				<source>
					<name value="Emergency service"/>
					<software value="Anon Patient Manager"/>
					<version value="2.1.45"/>
					<contact>
						<system value="phone"/>
						<value value="+44 (0113) 123 4567"/>
					</contact>
					<endpoint value="http://fhir.nhs.uk/Id/dos-service-id:__FROM_SERVICE__"/>
				</source>
				<reason>
					<coding>
						<system value="https://fhir.nhs.uk/CodeSystem/message-reasons"/>
						<code value="new"/>
					</coding>
				</reason>
				<focus>
					<reference value="urn:uuid:236bb75d-90ef-461f-b71e-fde7f899802c"/>
					<type value="Appointment"/>
				</focus>
			</MessageHeader>
		</resource>
	</entry>
	<entry>
		<fullUrl value="urn:uuid:236bb75d-90ef-461f-b71e-fde7f899802c"/>
		<resource>
			<Appointment>
				<meta>
					<profile value="https://fhir.hl7.org.uk/STU3/StructureDefinition/CareConnect-Appointment-1"/>
				</meta>
				<status value="booked"/>
				<description value="Reason for calling"/>
				<supportingInformation>
					<reference value="DocumentReference/123"/>
				</supportingInformation>
				<start value="__START_DATE____APPT_START_DATE__"/>
				<end value="__END_DATE____APPT_END_DATE__"/>
				<slot>
					<reference value="Slot/__SLOT_ID____APPT_SLOT_ID__"/>
				</slot>
				<created value="__APPT_CREATED__"/>
				<participant>
					<actor>
						<reference value="Patient/P1"/>
						<identifier>
							<use value="official"/>
							<system value="https://fhir.nhs.uk/Id/nhs-number"/>
							<value value="1234554321"/>
						</identifier>
						<display value="Peter James Chalmers"/>
					</actor>
					<status value="accepted"/>
				</participant>
				<id value="__APPT_ID__"/>
				<language value="en-GB"/>
			</Appointment>
		</resource>
	</entry>
	<entry>
		<fullUrl value="urn:uuid:236bb75d-90ef-461f-b71e-fde7f899802d"/>
		<resource>
			<DocumentReference>
				<id value="123"/>
				<meta>
					<profile value="https://fhir.hl7.org.uk/STU3/StructureDefinition/CareConnect-DocumentReference-1"/>
				</meta>
				<identifier>
					<system value="https://tools.ietf.org/html/rfc4122"/>
					<value value="6b9c59dd-675b-4026-98db-f608ef501e6e"/>
				</identifier>
				<status value="current"/>
				<type>
					<coding>
						<system value="urn:oid:2.16.840.1.113883.2.1.3.2.4.18.17"/>
						<code value="POCD_MT200001GB02"/>
						<display value="Integrated Urgent Care Report"/>
					</coding>
				</type>
				<date value="2018-12-20T09:43:41+11:00"/>
				<content>
					<attachment>
						<contentType value="application/hl7-v3+xml"/>
						<language value="en"/>
					</attachment>
				</content>
			</DocumentReference>
		</resource>
	</entry>
	<entry>
		<fullUrl value="urn:uuid:236bb75d-90ef-461f-b71e-fde7f899802e"/>
		<resource>
			<Slot>
				<id value="__SLOT_ID____APPT_SLOT_ID__"/>
				<meta>
					<profile value="https://fhir.hl7.org.uk/STU3/StructureDefinition/CareConnect-Slot-1"/>
				</meta>
				<identifier>
					<system value="__IDENTIFIER_SYSTEM____APPT_IDENTIFIER_SYSTEM__"/>
					<value value="__IDENTIFIER_VALUE____APPT_IDENTIFIER_VALUE__"/>
				</identifier>
				<schedule>
					<reference value="Schedule/__SCHEDULE____APPT_SCHEDULE__"/>
				</schedule>
				<status value="busy"/>
				<start value="__START_DATE____APPT_START_DATE__"/>
				<end value="__END_DATE____APPT_END_DATE__"/>
			</Slot>
		</resource>
	</entry>
	<entry>
		<fullUrl value="urn:uuid:236bb75d-90ef-461f-b71e-fde7f899802f"/>
		<resource>
			<Patient>
				<id value="P1"/>
				<meta>
					<profile value="https://fhir.hl7.org.uk/STU3/StructureDefinition/CareConnect-Patient-1"/>
				</meta>
				<identifier>
					<extension url="https://fhir.hl7.org.uk/STU3/StructureDefinition/Extension-CareConnect-NHSNumberVerificationStatus-1">
						<valueCodeableConcept>
							<coding>
								<system value="https://fhir.hl7.org.uk/STU3/CodeSystem/CareConnect-NHSNumberVerificationStatus-1"/>
								<code value="01"/>
								<display value="Number present and verified"/>
							</coding>
						</valueCodeableConcept>
					</extension>
					<use value="official"/>
					<system value="https://fhir.nhs.uk/Id/nhs-number"/>
					<value value="1234554321"/>
				</identifier>
				<name>
					<use value="official"/>
					<family value="Chalmers"/>
					<given value="Peter"/>
					<prefix value="Mr"/>
				</name>
				<telecom>
					<system value="phone"/>
					<value value="01234 567 890"/>
					<use value="home"/>
					<rank value="1"/>
				</telecom>
				<gender value="male"/>
				<birthDate value="1974-12-25"/>
				<address>
					<use value="home"/>
					<text value="123 High Street, Leeds LS1 4HR"/>
					<line value="123 High Street"/>
					<line value="Leeds"/>
					<city value="Leeds"/>
					<postalCode value="LS1 4HR"/>
				</address>
				<contact>
					<relationship>
						<coding>
							<system value="http://hl7.org/fhir/v2/0131"/>
							<code value="N"/>
							<display value="Next-of-Kin"/>
						</coding>
					</relationship>
					<name>
						<use value="official"/>
						<family value="Smith"/>
						<given value="Mary"/>
						<prefix value="Mrs"/>
					</name>
					<telecom>
						<system value="phone"/>
						<value value="01234 588 187"/>
						<use value="home"/>
						<rank value="2"/>
					</telecom>
				</contact>
			</Patient>
		</resource>
	</entry>
</Bundle>
