<Bundle xmlns="http://hl7.org/fhir">
   <meta>
      <lastUpdated value="2021-10-11T15:23:30+00:00"/>
      <profile value="https://fhir.hl7.org.uk/StructureDefinition/UKCore-Bundle"/>
   </meta>
   <type value="message"/>
   <timestamp value="2021-10-11T12:15:10+00:00"/>
   <entry>
      <resource>
         <MessageHeader xmlns="http://hl7.org/fhir">
            <meta>
               <profile value="https://fhir.hl7.org.uk/StructureDefinition/UKCore-MessageHeader"/>
            </meta>
            <eventCoding>
               <system value="https://fhir.hl7.org.uk/ValueSet/UKCore-MessageEvent"/>
               <code value="371528001"/>
            </eventCoding>
            <destination>
               <receiver>
                  <reference value="urn:uuid:07939a0c-2854-46ff-9282-ad906bc93679"/>
               </receiver>
            </destination>
            <sender>
               <reference value="urn:uuid:10397afd-479c-42ea-9d5d-e4024481e0f8"/>
            </sender>
            <source>
               <name value="My organisation name"/>
               <software value="My software name"/>
               <endpoint value="https://My.System.nhs.uk"/>
            </source>
            <reason>
               <coding>
                  <system value="http://terminology.hl7.org/CodeSystem/message-reasons-encounter"/>
                  <code value="TBD"/>
               </coding>
            </reason>
            <focus>
               <reference value="Appointment/1172152b-3707-45b1-8e6a-4b2b7f0ba0bc"/>
               <type value="Appointment"/>
            </focus>
         </MessageHeader>
      </resource>
   </entry>
   <entry>
      <resource>
         <Appointment xmlns="http://hl7.org/fhir">
            <id value="1172152b-3707-45b1-8e6a-4b2b7f0ba0bc"/>
            <meta>
               <profile value="https://fhir.hl7.org.uk/StructureDefinition/UKCore-Appointment"/>
            </meta>
            <status value="noshow"/>
            <cancelationReason>
               <coding>
                  <code value="pat"/>
                  <display value="Patient"/>
               </coding>
            </cancelationReason>
            <slot>
               <reference value="Slot/c3f6145e-1a26-4345-b3f2-dccbcba62049"/>
            </slot>
            <basedOn>
               <reference value="urn:uuid:f3d3e399-54d4-4d23-9e78-39c71821ddda"/>
               <type value="serviceRequest"/>
            </basedOn>
            <participant>
               <actor>
                  <reference value="Patient/1234567890"/>
               </actor>
            </participant>
         </Appointment>
      </resource>
   </entry>
   <entry>
      <resource>
         <Patient xmlns="http://hl7.org/fhir">
            <meta>
               <profile value="https://fhir.hl7.org.uk/StructureDefinition/UKCore-Patient"/>
            </meta>
            <identifier>
               <extension url="https://fhir.hl7.org.uk/StructureDefinition/Extension-UKCore-NHSNumberVerificationStatus">
                  <valueCodeableConcept>
                     <coding>
                        <system value="https://fhir.hl7.org.uk/CodeSystem/UKCore-NHSNumberVerificationStatus"/>
                        <code value="number-present-and-verified"/>
                        <display value="Number present and verified"/>
                     </coding>
                  </valueCodeableConcept>
               </extension>
               <use value="official"/>
               <system value="https://fhir.nhs.uk/Id/nhs-number"/>
               <value value="9476719931"/>
            </identifier>
         </Patient>
      </resource>
   </entry>
   <entry>
      <resource>
         <Slot xmlns="http://hl7.org/fhir">
            <id value="c3f6145e-1a26-4345-b3f2-dccbcba62049"/>
            <meta>
               <profile value="https://fhir.hl7.org.uk/StructureDefinition/UKCore-Slot"/>
            </meta>
            <serviceCategory>
               <coding>
                  <code value="14"/>
                  <display value="Emergency Department"/>
               </coding>
            </serviceCategory>
            <appointmentType>
               <coding>
                  <code value="EMERGENCY"/>
                  <display value="Emergency appointment"/>
               </coding>
            </appointmentType>
            <schedule>
               <reference value="Schedule/{ScheduleItem}"/>
            </schedule>
            <status value="free"/>
            <start value="2021-10-06T10:00:00.000+00:00"/>
            <end value="2021-10-06T11:00:00.000+00:00"/>
         </Slot>
      </resource>
   </entry>
   <entry>
      <resource>
         <Schedule xmlns="http://hl7.org/fhir">
            <id value="{ScheduleItem}"/>
            <meta>
               <profile value="https://fhir.hl7.org.uk/StructureDefinition/UKCore-Schedule"/>
            </meta>
            <identifier>
               <system value="https://system.supplier.co.uk/Diary/id"/>
               <value value="8622dfdb-dc6a-47b6-b3a7-2eb2829db287"/>
            </identifier>
            <actor>
               <reference value="HealthcareService/{HealcareServiceid}"/>
            </actor>
            <actor>
               <reference value="PractitionerRole/{PractitionerRoleid}"/>
            </actor>
            <actor>
               <reference value="Practitioner/{Practitionerid}"/>
            </actor>
         </Schedule>
      </resource>
   </entry>
   <entry>
      <resource>
         <HealthcareService xmlns="http://hl7.org/fhir">
            <id value="[HealcareServiceid]"/>
            <meta>
               <profile value="https://fhir.hl7.org.uk/StructureDefinition/UKCore-Healthservice"/>
            </meta>
            <identifier>
               <system value="https://system.supplier.co.uk/My/Healthcare/Services"/>
               <value value="100"/>
            </identifier>
            <location>
               <reference value="Location/Locationid"/>
            </location>
            <name value="Healthcare Service Name"/>
         </HealthcareService>
      </resource>
   </entry>
   <entry>
      <resource>
         <Practitioner xmlns="http://hl7.org/fhir">
            <id value="[Practitionerid]"/>
            <meta>
               <profile value="https://fhir.hl7.org.uk/StructureDefinition/UKCore-Practitioner"/>
            </meta>
            <name>
               <family value="Bloggs"/>
               <given value="Joe"/>
               <prefix value="Dr"/>
            </name>
         </Practitioner>
      </resource>
   </entry>
   <entry>
      <resource>
         <PractitionerRole xmlns="http://hl7.org/fhir">
            <id value="[PractitionerRoleid]"/>
            <meta>
               <profile value="https://fhir.hl7.org.uk/StructureDefinition/UKCore-PractitionerRole"/>
            </meta>
            <code>
               <coding>
                  <system value="https://fhir.hl7.org.uk/ValueSet/UKCore-PractitionerRoleCode"/>
                  <version value="4.0.1"/>
                  <code value="doctor"/>
                  <display value="Doctor"/>
               </coding>
            </code>
         </PractitionerRole>
      </resource>
   </entry>
   <entry>
      <resource>
         <Location xmlns="http://hl7.org/fhir">
            <id value="[Locationid]"/>
            <meta>
               <profile value="https://fhir.hl7.org.uk/StructureDefinition/UKCore-Location"/>
            </meta>
            <name value="Healthcare Service Location"/>
            <position>
               <longitude value="143.20196"/>
               <latitude value="-37.22866"/>
            </position>
         </Location>
      </resource>
   </entry>
</Bundle>
